timestamp,accel_x,accel_y,accel_z,gyro_x,gyro_y,gyro_z,mag_x,mag_y,mag_z,pressure
0.000023,-0.006344,0.047092,1.016260,0.002258,0.000370,-0.001397,-0.564687,-3.899373,8.301652,1016.222656
0.018469,-0.006100,0.046604,1.016504,-0.001383,-0.001438,-0.000172,-1.016437,-7.018871,14.942973,1016.222656
0.036312,-0.007564,0.047092,1.018212,0.000742,0.001289,0.000131,-1.377837,-9.514469,20.448133,1016.216064
0.055465,-0.005612,0.046848,1.017236,-0.002574,-0.001435,0.000129,-1.628103,-11.494148,24.852261,1016.216064
0.080217,-0.007564,0.046604,1.016992,0.001674,0.000090,-0.001375,-1.828315,-13.077891,28.375563,1016.213135
0.103352,-0.007320,0.046116,1.015528,-0.003159,-0.001713,-0.001652,-1.949631,-14.333686,31.519300,1016.213135
0.121069,-0.007320,0.046604,1.016260,-0.001004,-0.000783,-0.001924,-2.046684,-15.338322,34.034290,1016.209961
0.141239,-0.006832,0.047824,1.016748,-0.001888,0.000732,-0.000691,-2.124326,-16.298830,35.769211,1016.209961
0.164052,-0.009272,0.045872,1.017236,0.001147,0.001020,-0.002481,-2.322430,-17.067236,37.157146,1016.206543
0.189419,-0.008784,0.047092,1.016992,-0.000074,-0.000799,0.000864,-2.480913,-17.581161,38.448517,1016.203369
0.214775,-0.007808,0.045872,1.019432,-0.002475,0.000115,-0.000952,-2.452281,-17.992302,39.481613,1016.203369
0.240702,-0.008052,0.047092,1.017968,-0.003334,0.001614,-0.001837,-2.532988,-18.304415,40.230511,1016.204102
0.266088,-0.007320,0.046848,1.017724,0.000626,-0.000815,-0.000605,-2.597553,-18.554104,40.829628,1016.204102
0.292065,-0.007076,0.046360,1.016748,0.002417,-0.000501,-0.000295,-2.584449,-18.753855,41.345863,1016.204102
0.317427,-0.006832,0.045872,1.017968,-0.001227,-0.000793,-0.002092,-2.573965,-18.913656,41.758854,1016.201904
0.342794,-0.006588,0.047336,1.017724,-0.002408,0.001022,0.000947,-2.597956,-19.035898,41.882366,1016.201904
0.368653,-0.006100,0.047092,1.016992,-0.000265,-0.000797,0.000931,-2.617150,-19.133692,41.981178,1016.198242
0.394172,-0.007564,0.046604,1.016504,0.000940,-0.000183,0.001516,-2.451184,-19.284725,42.130417,1016.195557
0.420311,-0.006100,0.046360,1.018944,0.000624,0.000121,0.000289,-2.318411,-19.405552,42.249809,1016.195557
0.446394,-0.007564,0.046848,1.017480,0.000614,-0.000782,0.000584,-2.276950,-19.367813,42.241882,1016.194336
0.469095,-0.006832,0.045140,1.018212,-0.000598,0.001633,-0.000326,-2.243782,-19.337624,42.235542,1016.194336
0.489265,-0.006100,0.046116,1.015528,-0.000287,-0.001097,0.000880,-2.385616,-19.380671,42.666393,1016.193359
0.512302,-0.007808,0.047580,1.016016,0.000919,-0.001979,-0.002438,-2.499083,-19.415110,43.011074,1016.195312
0.534654,-0.006588,0.045872,1.018944,0.001204,-0.001946,-0.001196,-2.350255,-19.509861,43.257263,1016.195312
0.555220,-0.007564,0.046116,1.015284,0.002384,0.000489,0.000927,-2.231192,-19.585661,43.454216,1016.195312
0.571413,-0.005612,0.046360,1.017236,-0.000959,-0.000120,-0.000290,-2.135942,-19.646301,43.611778,1016.199951
0.589623,-0.006344,0.047336,1.017480,-0.000642,-0.000118,0.000315,-2.325247,-19.655613,43.165215,1016.199951
0.605749,-0.007564,0.048068,1.018456,0.001170,-0.000716,0.000010,-2.476691,-19.663063,42.807964,1016.199219
0.623983,-0.006832,0.046604,1.016992,-0.000651,-0.002807,-0.001792,-2.597846,-19.669024,43.176048,1016.199219
0.640113,-0.006100,0.046360,1.017236,-0.001842,-0.001558,0.001541,-2.636488,-19.712992,43.470516,1016.200439
0.662066,-0.006100,0.045384,1.018456,0.000892,-0.000030,0.001816,-2.667402,-19.748165,43.706089,1016.200439
0.681854,-0.005368,0.046604,1.017236,0.001177,-0.000330,-0.000617,-2.743939,-19.821104,43.525124,1016.194580
0.704186,-0.006588,0.048312,1.016016,0.002659,-0.000024,0.000895,-2.805169,-19.879456,43.380348,1016.194580
0.726984,-0.007076,0.046604,1.016016,0.001413,-0.000925,0.001780,-2.854153,-19.819736,43.504658,1016.190186
0.752359,-0.005856,0.046604,1.017968,0.002891,-0.000008,-0.000352,-2.789728,-19.771961,43.604107,1016.190186
0.778253,-0.007076,0.045872,1.017236,0.000140,0.000292,0.000255,-2.738189,-19.638542,43.362263,1016.193604
0.803636,-0.005368,0.046848,1.016260,0.001038,-0.000013,0.000251,-2.709908,-19.531807,43.168789,1016.188965
0.829054,-0.007808,0.047336,1.018212,-0.000781,0.000888,-0.000054,-2.752042,-19.597618,43.424072,1016.188965
0.854929,-0.007320,0.046360,1.017480,0.001634,0.000573,0.001749,-2.785748,-19.650267,43.628300,1016.187500
0.877866,-0.007564,0.046848,1.015528,0.000706,0.001464,-0.000383,-2.812713,-19.580385,43.507221,1016.180420
0.900618,-0.009272,0.047336,1.017724,0.000094,-0.001263,-0.000977,-2.834285,-19.524481,43.410358,1016.180420
0.923803,-0.007564,0.047580,1.016260,0.000693,-0.001242,0.000241,-2.851543,-19.574957,43.602551,1016.175781
0.948595,-0.004148,0.047092,1.017724,0.000681,-0.000320,0.000237,-2.891252,-19.615337,43.756306,1016.175781
0.965485,-0.006344,0.046848,1.017480,0.000670,-0.000315,-0.000668,-2.923019,-19.647642,43.879307,1016.175781
0.980872,-0.007320,0.045384,1.017724,0.001860,-0.000009,-0.001858,-2.993763,-19.555885,44.324970,1016.171631
0.991058,-0.007808,0.046360,1.015772,0.001228,0.001492,-0.000025,-3.050358,-19.482481,44.681499,1016.171631
1.006149,-0.007076,0.046848,1.015040,-0.002096,-0.000034,-0.001526,-3.095634,-19.423758,44.966724,1016.171631
1.015115,-0.006588,0.046848,1.016748,-0.002962,0.002068,-0.000900,-3.131854,-19.376778,45.194904,1016.171631
1.025178,-0.005612,0.046116,1.016504,0.000391,0.000532,0.001518,-3.160831,-19.232794,45.255539,1016.171631
1.040458,-0.006588,0.046848,1.017236,-0.000817,-0.000378,0.000291,-3.067449,-19.117607,45.304047,1016.171631
1.049439,-0.006344,0.047336,1.017236,-0.001704,0.002331,0.000286,-2.992744,-19.025457,45.342850,1016.171631
1.058284,-0.006100,0.047092,1.016992,0.001028,-0.000411,0.000582,-2.932980,-18.951738,45.373894,1016.172119
1.074344,-0.006344,0.046116,1.015040,-0.000191,0.000497,-0.000329,-2.056276,-19.111164,44.560131,1016.172119
1.083212,-0.007076,0.046116,1.016992,-0.000488,0.001690,-0.000924,-2.054291,-19.238705,43.909122,1016.172119
1.092105,-0.005856,0.046360,1.017480,0.000721,-0.000440,-0.001810,-2.052703,-19.340736,43.388313,1016.172119
1.100963,-0.005612,0.046604,1.015772,0.000709,-0.000133,0.000323,-2.051432,-19.422361,42.971668,1016.169678
1.117413,-0.007320,0.047580,1.016748,-0.000504,0.000470,0.001819,-2.050416,-19.487661,42.638351,1016.169678
1.126216,-0.007564,0.046848,1.017968,0.001907,0.000462,0.002089,-2.185593,-19.584702,42.766983,1016.169678
1.135040,-0.007320,0.045628,1.014796,0.000373,-0.001047,-0.000349,-2.293735,-19.662334,42.869888,1016.168457
1.151244,-0.006100,0.046848,1.016504,-0.001435,0.002874,-0.000343,-2.380248,-19.724440,42.952213,1016.168457
1.160124,-0.007076,0.046116,1.018212,-0.000510,0.001024,-0.000037,-2.449458,-19.774124,43.018074,1016.168457
1.169014,-0.006832,0.047092,1.017724,0.000100,0.000707,-0.000637,-2.504827,-19.813871,43.115093,1016.168457
1.187024,-0.006344,0.046848,1.016504,-0.000803,-0.000506,-0.000026,-2.594452,-19.772869,43.192707,1016.162598
1.203205,-0.007564,0.046116,1.016992,-0.000790,0.000103,0.078353,-2.666152,-19.740068,43.254799,1016.162598
1.221272,-0.005856,0.045872,1.016260,-0.001377,0.000101,0.001361,-1.894619,-19.585028,43.097595,1016.162842
1.237358,-0.007564,0.047336,1.016748,-0.001354,-0.000801,-0.000464,-1.905539,-19.460995,42.971832,1016.162842
1.255353,-0.007564,0.047580,1.015040,-0.002232,-0.000488,-0.001057,-1.914274,-19.361769,42.871220,1016.164551
1.271411,-0.005612,0.045628,1.015772,-0.000393,-0.001380,-0.000438,-2.128485,-19.315987,43.012386,1016.164551
1.289397,-0.005612,0.046360,1.017968,0.001716,0.000144,-0.000431,-2.299854,-19.279362,43.125320,1016.164551
1.304338,-0.007808,0.047092,1.016748,-0.001015,-0.002261,-0.001325,-2.436949,-19.250061,43.215668,1016.159180
1.314307,-0.007320,0.046604,1.015772,-0.000698,0.000780,-0.000101,-2.546626,-19.226622,43.287945,1016.159180
1.332301,-0.006588,0.047092,1.016748,0.001116,-0.000434,-0.002202,-2.388289,-19.448669,43.467678,1016.159180
1.347228,-0.005612,0.047336,1.016260,-0.000705,0.000474,-0.001564,-2.261620,-19.626308,43.611465,1016.164551
1.357187,-0.006100,0.047092,1.016992,-0.001294,0.000767,-0.001838,-2.160284,-19.768419,43.726494,1016.164551
1.372124,-0.007320,0.045872,1.017480,-0.000671,0.000153,0.000595,-2.254061,-19.770107,43.807434,1016.164551
1.380958,-0.008296,0.047824,1.017724,0.001742,0.000751,-0.002117,-2.329082,-19.771458,43.872189,1016.161621
1.390924,-0.007076,0.047092,1.016992,-0.000990,-0.000463,0.000621,-2.389098,-19.772539,43.923992,1016.161621
1.408915,-0.006588,0.046848,1.018212,0.000829,-0.000455,-0.000591,-2.437112,-19.773403,43.965435,1016.161621
1.423845,-0.006588,0.045384,1.019188,0.002016,-0.001048,-0.002383,-2.669794,-19.639694,43.680878,1016.159668
1.433831,-0.008052,0.046604,1.017236,0.001081,-0.001631,-0.000841,-2.855940,-19.532728,43.453232,1016.159668
1.448768,-0.007076,0.046848,1.016748,0.001363,-0.000702,0.001575,-3.004857,-19.447155,43.271118,1016.159668
1.457573,-0.006832,0.046848,1.018700,-0.000762,-0.000691,-0.000253,-3.123991,-19.378696,43.125427,1016.159668
1.466383,-0.006100,0.046360,1.016016,0.001653,0.001123,-0.002951,-3.219297,-19.475130,43.164032,1016.156250
1.476358,-0.007808,0.048800,1.017236,0.001926,0.000503,-0.003502,-3.250212,-19.552277,43.194916,1016.156250
1.491295,-0.006344,0.047336,1.016260,0.000092,-0.001908,-0.002543,-3.274945,-19.613995,43.219624,1016.156250
1.500719,-0.005612,0.046360,1.016992,-0.000210,-0.001876,-0.001599,-3.294730,-19.663368,43.239391,1016.152100
1.517245,-0.005856,0.046116,1.018212,0.001896,-0.001844,-0.002173,-3.174569,-19.803667,43.140682,1016.152100
1.526048,-0.007564,0.045872,1.016260,0.001263,-0.000612,-0.001836,-3.078439,-19.915907,43.061714,1016.152100
1.534866,-0.005856,0.044896,1.016260,-0.000560,-0.000602,-0.001505,-3.001536,-20.005699,42.998539,1016.152100
1.543682,-0.006832,0.046848,1.016016,-0.001151,0.000610,-0.000578,-2.940013,-20.077532,42.947998,1016.149170
1.559757,-0.007564,0.047092,1.016260,0.000069,-0.001202,-0.000869,-2.890795,-20.134998,42.907566,1016.149170
1.568555,-0.006588,0.045872,1.015772,-0.002935,0.000319,-0.002356,-2.955032,-20.063372,43.008217,1016.149170
1.577375,-0.005368,0.045872,1.015284,-0.001084,0.000014,0.000987,-3.006422,-20.006069,43.088737,1016.149170
1.586195,-0.006588,0.046116,1.015772,-0.001065,-0.000587,0.000069,-3.047534,-19.960228,43.153152,1016.141357
1.602284,-0.007076,0.046116,1.017480,0.000454,0.000023,-0.000833,-3.080423,-19.923555,43.204685,1016.141357
1.611090,-0.007076,0.047824,1.019432,-0.001055,-0.000578,-0.001419,-3.106734,-19.894217,43.559921,1016.141357
1.619908,-0.007076,0.046116,1.018700,-0.001338,0.001835,-0.001395,-3.147211,-19.842745,43.844112,1016.141357
1.628725,-0.006588,0.047092,1.017480,0.000186,0.000302,-0.001972,-3.179592,-19.801569,44.071465,1016.136475
1.644802,-0.006100,0.046360,1.015528,0.001384,-0.000604,-0.000738,-3.205497,-19.768627,44.253345,1016.136475
1.653611,-0.005124,0.047336,1.016748,0.000160,0.001809,-0.002828,-3.226220,-19.742273,44.398849,1016.136475
1.662432,-0.005856,0.046848,1.014796,0.001058,0.000577,-0.002480,-3.242800,-19.659592,44.053471,1016.134766
1.672399,-0.006832,0.047336,1.017480,0.000740,-0.001535,-0.000637,-3.087694,-19.593445,43.777168,1016.134766
1.687339,-0.006100,0.046360,1.016992,0.001328,-0.000908,-0.001226,-2.963610,-19.540527,43.556126,1016.134766
1.696399,-0.007808,0.046848,1.019432,-0.001997,-0.000593,-0.000605,-2.864342,-19.498194,43.379292,1016.134766
1.705227,-0.005368,0.046116,1.015284,-0.001063,0.000618,-0.001196,-2.784929,-19.464327,43.237823,1016.129395
1.715170,-0.007076,0.046360,1.018456,-0.001646,0.000308,-0.001776,-2.844436,-19.476435,43.124649,1016.129395
1.730091,-0.004636,0.046604,1.016992,0.001685,-0.001199,-0.001446,-2.892042,-19.486120,43.034111,1016.129395
1.738888,-0.005856,0.047580,1.016504,0.000155,-0.002380,-0.001121,-2.930127,-19.493868,42.961681,1016.129395
1.747704,-0.007808,0.047092,1.019188,-0.001649,0.001564,-0.000202,-2.960595,-19.500067,42.903736,1016.128174
1.757674,-0.005856,0.047580,1.015528,-0.000420,0.000036,0.000102,-2.984969,-19.505026,43.027317,1016.128174
1.772614,-0.006832,0.046116,1.018212,0.001389,-0.001766,-0.000500,-2.926760,-19.458593,43.126183,1016.128174
1.781432,-0.007564,0.046604,1.018456,0.001365,-0.002037,-0.000192,-2.880192,-19.421448,43.205273,1016.128174
1.790247,-0.007320,0.046360,1.018944,-0.000159,-0.001102,-0.000489,-2.842938,-19.391731,43.268547,1016.125488
1.800232,-0.007564,0.047336,1.019432,-0.000457,-0.000182,-0.001081,-2.813135,-19.367958,43.319164,1016.125488
1.815169,-0.006832,0.046360,1.016748,0.001353,-0.000179,-0.001063,-2.789292,-19.421740,43.126919,1016.125488
1.823976,-0.007564,0.045872,1.017480,0.003432,0.000124,-0.001045,-2.770218,-19.464764,42.973125,1016.125488
1.832791,-0.005612,0.046848,1.015528,0.000972,0.000723,0.000174,-2.754959,-19.499184,42.850090,1016.125488
1.842776,-0.006832,0.047336,1.014552,0.000355,0.001011,-0.000730,-2.742752,-19.526720,42.751659,1016.125488
1.857708,-0.007564,0.048312,1.016748,0.000049,0.000393,0.000183,-2.732986,-19.492748,42.975845,1016.125488
1.866512,-0.007076,0.047336,1.017480,-0.000552,-0.000214,-0.000421,-2.686319,-19.465570,43.155193,1016.122314
1.876592,-0.005856,0.045384,1.016504,-0.001444,0.000690,-0.003717,-2.648986,-19.443829,43.298672,1016.122314
1.891558,-0.006344,0.046848,1.016260,0.000382,0.000979,-0.002153,-2.619119,-19.426435,43.413456,1016.122314
1.900369,-0.006100,0.046848,1.018212,0.001577,0.001263,-0.000915,-2.595225,-19.412521,43.505283,1016.122314
1.909165,-0.005368,0.045140,1.017480,0.000649,0.001542,0.000301,-2.647343,-19.418190,43.634159,1016.117432
1.919121,-0.006344,0.045628,1.018944,0.000638,0.002117,0.001197,-2.689038,-19.422724,43.737259,1016.117432
1.934081,-0.006100,0.046848,1.016992,-0.001474,0.001180,-0.001526,-2.722393,-19.426352,43.819740,1016.117432
1.942893,-0.007564,0.048312,1.017724,-0.001450,0.001761,-0.001500,-2.749077,-19.429255,43.885727,1016.117432
1.951711,-0.007076,0.047336,1.018700,-0.001425,0.000831,-0.000874,-2.770425,-19.431576,43.938515,1016.120850
1.961688,-0.006588,0.046848,1.015772,-0.000801,0.000216,-0.002061,-2.787503,-19.517433,44.047241,1016.120850
1.976945,-0.005856,0.045872,1.017480,0.001915,0.002014,0.000076,-2.801165,-19.586119,44.134224,1016.120850
1.985823,-0.007076,0.047336,1.018212,-0.002321,0.000779,-0.001727,-2.812095,-19.641068,44.203808,1016.120850
1.994669,-0.005612,0.047580,1.018212,0.000421,-0.000736,0.000104,-2.820839,-19.685026,44.259476,1016.122559
2.011285,-0.006588,0.045872,1.016992,0.001315,0.001079,-0.003502,-2.860213,-19.563393,44.485031,1016.122559
2.020601,-0.007076,0.046116,1.016016,-0.000810,0.002862,-0.000140,-2.891712,-19.466087,44.665474,1016.122559
2.038628,-0.006100,0.046604,1.018212,0.001907,0.000412,-0.000438,-2.916912,-19.388243,44.809830,1016.123535
2.054696,-0.006100,0.045872,1.017968,0.002175,0.000705,-0.001031,-2.937071,-19.353966,44.500473,1016.123535
2.072699,-0.006100,0.046360,1.018212,0.000937,-0.001108,-0.000113,-2.894917,-19.326546,44.252987,1016.114502
2.088779,-0.005856,0.046360,1.016260,0.002723,0.000712,-0.001612,-2.861194,-19.304609,44.054996,1016.114502
2.106789,-0.006832,0.046848,1.017236,0.001176,0.000400,-0.000984,-2.795361,-19.354259,43.911381,1016.114502
2.121717,-0.004636,0.047336,1.017236,0.000556,-0.001409,0.000534,-2.742695,-19.393980,43.796490,1016.118652
2.131674,-0.003904,0.047092,1.015772,0.000847,0.000417,0.000525,-2.700562,-19.425756,43.704578,1016.118652
2.149670,-0.007076,0.047092,1.018212,-0.000069,-0.000792,-0.001286,-2.666856,-19.451178,43.438946,1016.118652
2.164597,-0.007076,0.046604,1.016748,0.001734,-0.000478,-0.002165,-2.737026,-19.549915,43.226440,1016.112793
2.174552,-0.007564,0.046360,1.016016,0.001405,-0.001971,-0.000928,-2.793163,-19.628904,43.056435,1016.112793
2.189524,-0.005368,0.046116,1.017236,0.000180,-0.000737,-0.000011,-2.838072,-19.692097,42.920433,1016.112793
2.198337,-0.004880,0.047092,1.016748,0.001078,-0.002226,0.000289,-2.874000,-19.742649,42.985260,1016.114014
2.208301,-0.005124,0.046604,1.016504,0.000760,-0.001888,0.001486,-2.799130,-19.895092,43.037121,1016.114014
2.226289,-0.007564,0.046360,1.017480,-0.001055,-0.000956,-0.000641,-2.739234,-20.017046,43.078609,1016.114014
2.241224,-0.006100,0.047336,1.017968,-0.001938,-0.000339,-0.001832,-2.691318,-20.114609,43.111801,1016.113037
2.251178,-0.006832,0.047824,1.016504,0.000197,-0.000634,-0.001501,-2.652984,-20.013460,43.123577,1016.113037
2.266115,-0.006588,0.047580,1.016504,-0.000708,-0.001524,-0.000274,-2.589939,-19.932541,43.132999,1016.113037
2.274958,-0.005612,0.046360,1.016992,-0.001897,-0.000297,0.000031,-2.539502,-19.867805,43.140537,1016.115967
2.284918,-0.006588,0.046604,1.018700,-0.001565,0.000909,0.000030,-2.499153,-19.816017,43.146568,1016.115967
2.299914,-0.007320,0.046116,1.017724,-0.001538,0.001795,-0.000271,-2.466874,-19.858585,43.088589,1016.115967
2.308732,-0.007564,0.046604,1.017968,-0.000612,-0.000037,-0.001467,-2.505808,-19.892641,43.042206,1016.115967
2.317552,-0.005612,0.047092,1.017236,-0.000001,-0.000037,-0.002344,-2.536955,-19.919886,43.005100,1016.109863
2.327509,-0.006100,0.048556,1.016748,-0.000301,-0.000036,0.000398,-2.561873,-19.941681,42.975414,1016.109863
2.345506,-0.006832,0.045140,1.019432,0.000905,0.000265,0.000091,-2.581807,-19.959118,43.158543,1016.109863
2.360435,-0.006832,0.046848,1.016016,-0.000912,0.001462,0.000991,-2.643085,-19.978666,43.305046,1016.104492
2.370385,-0.005368,0.046360,1.017236,-0.000596,-0.001266,0.000073,-2.692107,-19.994305,43.422249,1016.104492
2.385327,-0.006344,0.046604,1.016260,0.000315,-0.000644,-0.002030,-2.731325,-20.006817,43.516010,1016.104492
2.394141,-0.007808,0.046360,1.016504,-0.000291,0.000568,-0.001095,-2.762699,-20.016827,43.672295,1016.104492
2.402962,-0.005856,0.045628,1.015772,0.001215,0.000258,-0.000476,-2.781322,-19.851234,43.797321,1016.103516
2.412910,-0.006344,0.046360,1.017236,0.000894,-0.001247,0.000433,-2.796221,-19.718760,43.897343,1016.103516
2.427844,-0.007320,0.047092,1.017968,-0.000922,0.001476,0.000426,-2.808139,-19.612780,43.977360,1016.103516
2.436677,-0.007564,0.045872,1.018456,0.000294,-0.000350,-0.000182,-2.817674,-19.527996,44.041374,1016.100342
2.446637,-0.006832,0.046848,1.016748,-0.000011,-0.002146,-0.001080,-1.996410,-19.549768,43.885708,1016.100342
2.464627,-0.008052,0.046360,1.016504,0.002692,-0.001810,0.000740,-1.974020,-19.567186,43.761173,1016.100342
2.479573,-0.007320,0.047336,1.016016,-0.000356,0.000323,-0.000474,-1.956107,-19.581121,43.661545,1016.100342
2.489550,-0.006100,0.047824,1.016992,-0.000651,0.001819,-0.002268,-1.941777,-19.592270,43.581844,1016.100342
2.504518,-0.006832,0.045872,1.016748,-0.001240,0.001488,0.001975,-2.020973,-19.701988,43.255791,1016.100342
2.513726,-0.006588,0.046116,1.014796,0.000582,-0.000940,0.000140,-2.084330,-19.789762,42.994949,1016.100342
2.522613,-0.007320,0.047092,1.015040,0.000873,-0.002425,-0.002265,-2.135015,-19.859982,42.786274,1016.101318
2.532576,-0.007076,0.046360,1.015040,0.000258,0.000318,0.000476,-2.175564,-19.916157,42.619335,1016.101318
2.547501,-0.007320,0.046604,1.016504,-0.000347,-0.001789,0.000167,-2.097915,-20.089897,42.522724,1016.101318
2.556376,-0.006344,0.047092,1.015528,0.000259,0.000343,0.001066,-2.035796,-20.228889,42.445438,1016.101318
2.565198,-0.006100,0.045628,1.016504,0.001456,0.000637,-0.001655,-1.986101,-20.340084,42.383610,1016.103271
2.575143,-0.005856,0.044896,1.017236,0.001131,0.001528,0.000775,-1.946345,-20.429039,42.334145,1016.103271
2.590075,-0.006588,0.046360,1.016260,0.000512,-0.001201,-0.001040,-1.914540,-20.500204,42.146801,1016.103271
2.598884,-0.005612,0.046360,1.015528,-0.000098,0.000621,0.000780,-2.161077,-20.400335,41.996929,1016.106201
2.608853,-0.006588,0.047092,1.017968,0.000505,0.001512,-0.000735,-2.358306,-20.320440,41.877029,1016.106201
2.623798,-0.007076,0.046360,1.016016,0.001697,-0.000916,0.000779,-2.516090,-20.256525,41.781109,1016.106201
2.632631,-0.006100,0.045628,1.016016,0.000468,-0.001201,-0.001336,-2.642316,-20.205393,41.704372,1016.106201
2.641448,-0.006344,0.046360,1.016992,-0.001342,0.000020,-0.000713,-2.743298,-20.214888,41.894196,1016.101074
2.651418,-0.006832,0.046604,1.015528,0.000482,0.000621,0.000200,-2.798180,-20.222483,42.046055,1016.101074
2.666351,-0.006344,0.047336,1.016504,-0.000126,0.000010,-0.001606,-2.842086,-20.228559,42.167542,1016.101074
2.675161,-0.007076,0.046360,1.016992,-0.000425,0.000610,0.000524,-2.877211,-20.233421,42.264729,1016.101074
2.683979,-0.006100,0.047092,1.016992,0.000183,0.000299,0.000815,-2.905310,-20.237310,42.342480,1016.096924
2.693988,-0.006100,0.047580,1.016260,-0.001321,-0.000907,0.001402,-2.752945,-20.145222,42.083279,1016.096924
2.708936,-0.006344,0.046116,1.016748,0.000202,-0.000591,-0.000423,-2.631053,-20.071550,41.875919,1016.096924
2.717749,-0.006344,0.045872,1.017968,0.001100,0.002121,0.000485,-2.533540,-20.012613,41.710033,1016.096924
2.726554,-0.008052,0.045872,1.017480,-0.001321,0.000885,-0.001626,-2.455529,-19.965464,41.577324,1016.099609
2.736487,-0.006344,0.046848,1.016260,0.001704,-0.000932,-0.000697,-2.393121,-19.927744,42.416889,1016.099609
2.751427,-0.005856,0.046848,1.017236,-0.003129,-0.000016,-0.000385,-2.446805,-19.914368,42.482677,1016.099609
2.760234,-0.007808,0.047092,1.018212,-0.001575,-0.001217,-0.000679,-2.489753,-19.903667,42.535309,1016.099609
2.769046,-0.006832,0.047336,1.016016,0.001154,-0.000295,0.000533,-2.524111,-19.895107,42.577415,1016.102783
2.779004,-0.006100,0.047824,1.017236,-0.000367,0.000310,0.001425,-2.551598,-19.888258,42.611099,1016.102783
2.793938,-0.006344,0.046116,1.017236,-0.000060,-0.000596,-0.001301,-2.567111,-19.955580,42.671295,1016.102783
2.802738,-0.006832,0.047824,1.016260,-0.001861,-0.000586,-0.000379,-2.579522,-20.009438,42.719452,1016.104248
2.812689,-0.006588,0.047092,1.016992,-0.001830,-0.001477,-0.000072,-2.589451,-20.052523,42.757980,1016.104248
2.830678,-0.007320,0.046360,1.016504,0.001804,0.000050,-0.000371,-2.597394,-20.086990,42.788803,1016.104248
2.845601,-0.006344,0.046604,1.016992,0.001173,-0.002954,-0.000365,-2.454807,-20.080965,43.053585,1016.103760
2.855546,-0.006100,0.046604,1.016260,0.000253,-0.001103,0.001143,-2.340737,-20.076145,43.265411,1016.103760
2.870489,-0.006832,0.047824,1.017236,0.000549,0.000717,-0.000378,-2.249481,-20.072289,43.434872,1016.103760
2.879445,-0.007076,0.048556,1.016992,-0.000361,0.000105,-0.001573,-2.176477,-20.069202,43.570442,1016.103760
2.888304,-0.006588,0.046848,1.016748,-0.001556,0.000403,-0.001847,-2.946965,-20.128334,43.645649,1016.106445
2.898269,-0.006344,0.047092,1.016016,-0.000629,0.001898,-0.002416,-2.838076,-20.175640,43.705814,1016.106445
2.913194,-0.006100,0.046604,1.016016,0.000282,-0.001437,-0.000874,-2.750964,-20.213486,43.753948,1016.106445
2.922015,-0.005856,0.046360,1.016260,0.002079,-0.000812,0.000642,-2.681274,-20.243761,43.792454,1016.106445
2.930851,-0.006344,0.046604,1.017236,0.001744,0.001003,-0.003573,-2.625523,-20.267982,43.823257,1016.105713
2.940816,-0.006344,0.047336,1.016260,0.001114,0.000986,-0.000510,-2.826999,-20.248158,43.958729,1016.105713
2.955758,-0.005368,0.046848,1.017480,-0.001007,0.001270,0.000400,-2.988179,-20.232298,44.067108,1016.105713
2.964582,-0.006832,0.047336,1.017236,-0.000089,0.000047,-0.000208,-3.117124,-20.219610,44.153809,1016.105713
2.973397,-0.006344,0.044408,1.015040,0.000513,-0.000254,0.001297,-3.220280,-20.209461,44.223171,1016.108643
2.983384,-0.007564,0.046116,1.014796,0.000805,0.000051,-0.000526,-3.302804,-20.201342,44.127197,1016.108643
2.998326,-0.006832,0.046116,1.015528,-0.000110,-0.000250,0.001585,-3.323494,-20.290047,44.050415,1016.108643
3.007386,-0.006100,0.046604,1.014064,0.000493,-0.002048,-0.000244,-3.340046,-20.361010,43.988991,1016.113037
3.017505,-0.008540,0.046848,1.017236,-0.000717,0.001290,0.000361,-3.353287,-20.417780,43.939850,1016.113037
3.032441,-0.006100,0.047580,1.016016,-0.000404,-0.000834,0.000956,-3.363881,-20.463196,43.630856,1016.113037
3.041238,-0.006100,0.046360,1.015772,-0.000998,-0.000219,0.001240,-3.171608,-20.421129,43.383663,1016.113037
3.050044,-0.006588,0.046604,1.018212,-0.000681,0.000685,0.000018,-3.017789,-20.387476,43.185909,1016.110352
3.060004,-0.009272,0.047092,1.015772,0.001433,0.000974,0.001519,-2.894735,-20.360554,43.027706,1016.110352
3.074934,-0.006344,0.046604,1.015040,0.001108,0.001258,0.000592,-2.796291,-20.339016,42.901142,1016.110352
3.083742,-0.007564,0.047092,1.018944,0.001090,-0.000565,0.000883,-2.717536,-20.075386,43.073265,1016.110352
3.092676,-0.006100,0.046848,1.016504,0.001372,-0.001456,0.000568,-2.816425,-19.864481,43.210964,1016.109863
3.102645,-0.006100,0.046604,1.015040,0.000147,-0.000231,-0.000042,-2.895536,-19.695757,43.321125,1016.109863
3.117636,-0.006100,0.046604,1.016504,-0.000456,0.000974,-0.001844,-2.958825,-19.560778,43.409252,1016.109863
3.126449,-0.006344,0.047336,1.016260,-0.000448,0.000057,-0.000011,-3.009456,-19.452795,43.479755,1016.109863
3.135267,-0.006100,0.045628,1.015772,-0.000140,0.001858,0.001191,-3.062912,-19.528809,43.617432,1016.106689
3.145230,-0.006588,0.046116,1.015528,0.000162,0.001226,0.001171,-3.105677,-19.589619,43.727573,1016.106689
3.160183,-0.005612,0.046360,1.017480,-0.000741,0.001806,-0.000351,-3.139889,-19.638268,43.815685,1016.106689
3.168988,-0.007808,0.047092,1.017968,-0.000729,0.000875,-0.000645,-3.167259,-19.677187,43.886177,1016.106445
3.178949,-0.006100,0.047580,1.016748,-0.000116,-0.000041,-0.000334,-3.189154,-19.708323,43.303459,1016.106445
3.193887,-0.007320,0.046360,1.017236,0.001387,0.000260,-0.000629,-3.083632,-19.778030,42.837284,1016.106445
3.202696,-0.007076,0.046604,1.017236,0.000764,-0.000945,-0.001519,-2.999215,-19.833797,42.464344,1016.106445
3.211511,-0.007076,0.047580,1.018456,-0.001351,0.001173,0.000909,-2.931680,-19.878410,42.165993,1016.108398
3.221466,-0.006100,0.047824,1.016992,0.000473,-0.000349,0.000293,-2.877653,-19.914101,41.927311,1016.108398
3.239460,-0.007320,0.046604,1.017968,0.000465,-0.000042,-0.000312,-2.925092,-19.976254,42.323757,1016.108398
3.254388,-0.006344,0.047580,1.016992,-0.001344,0.002661,-0.001809,-2.963042,-20.025976,42.640911,1016.108887
3.264351,-0.006344,0.046848,1.017480,0.000180,0.001115,-0.001478,-2.993403,-20.065754,42.894634,1016.108887
3.279282,-0.005856,0.047092,1.016504,-0.001025,0.000195,-0.000252,-3.017691,-20.041576,42.669079,1016.108887
3.288095,-0.006588,0.047580,1.018700,0.000794,0.000492,-0.000548,-2.868753,-20.022234,42.488636,1016.108887
3.296928,-0.006100,0.046116,1.015528,0.000181,0.000784,0.001263,-2.749602,-20.006760,42.344280,1016.105469
3.306891,-0.006344,0.046848,1.017480,-0.000123,0.001071,0.000942,-2.654282,-19.994381,42.228798,1016.105469
3.321831,-0.006588,0.045384,1.016992,0.001381,-0.000448,-0.000576,-2.578026,-19.984478,42.136410,1016.105469
3.330640,-0.007808,0.047336,1.016504,0.001658,0.001361,0.000035,-2.504069,-19.931755,42.232437,1016.105469
3.339456,-0.006832,0.047824,1.018944,0.001930,0.001639,-0.000867,-2.444904,-19.889576,42.309258,1016.109131
3.349434,-0.007076,0.046604,1.017236,0.002198,0.001010,-0.001453,-2.397572,-19.855833,42.370712,1016.109131
3.364368,-0.006588,0.047092,1.017480,0.000359,0.000093,-0.000227,-2.359706,-19.828838,42.419876,1016.109131
3.373171,-0.007076,0.047824,1.018456,0.000053,-0.001410,0.000077,-2.329414,-19.807243,42.459209,1016.115723
3.383127,-0.006344,0.046360,1.015528,-0.000248,-0.001687,-0.001426,-2.331082,-19.991568,42.571949,1016.115723
3.401118,-0.007076,0.046604,1.018212,-0.001445,-0.001959,0.000099,-2.332417,-20.139027,42.662144,1016.115723
3.416050,-0.005856,0.048312,1.017480,-0.001121,0.000476,0.001900,-2.333485,-20.256994,42.734299,1016.114746
3.426003,-0.005612,0.046848,1.016748,-0.001102,0.000168,-0.000234,-2.334339,-20.037767,42.548199,1016.114746
3.440988,-0.007320,0.045384,1.016748,0.000118,0.000465,0.000670,-2.516343,-19.862387,42.399319,1016.114746
3.449801,-0.007076,0.046848,1.016748,0.001317,0.000758,0.000059,-2.661947,-19.722082,42.280216,1016.114746
3.458618,-0.007320,0.047580,1.018456,-0.000807,-0.000456,0.000358,-2.778429,-19.609838,42.184933,1016.121582
3.468575,-0.006344,0.046116,1.016748,0.000107,0.001053,0.003055,-2.871615,-19.520042,42.108707,1016.121582
3.483508,-0.006344,0.046360,1.017480,0.000106,-0.001367,0.001502,-2.836076,-19.341806,42.358044,1016.121582
3.492343,-0.008296,0.047336,1.018212,0.001305,-0.001644,-0.000325,-2.807646,-19.199217,42.557514,1016.121582
3.501163,-0.006100,0.046604,1.016260,0.001884,-0.002518,-0.000320,-2.784901,-19.085146,42.717091,1016.126221
3.511232,-0.006832,0.047092,1.017236,0.000951,-0.001274,0.000586,-2.766705,-18.993889,42.844753,1016.126221
3.526349,-0.005612,0.047092,1.016992,-0.001167,0.001750,-0.000625,-2.642061,-19.161684,42.625481,1016.126221
3.535189,-0.006832,0.048068,1.016992,0.000654,0.002021,0.001188,-2.542346,-19.295919,42.450062,1016.130127
3.545190,-0.008540,0.046848,1.019188,-0.002059,0.002288,-0.000334,-2.462574,-19.403309,42.309727,1016.130127
3.560113,-0.007808,0.045872,1.015528,0.000077,-0.001054,-0.001229,-2.398757,-19.489220,42.197460,1016.130127
3.569010,-0.005612,0.046604,1.015040,0.000376,0.000165,-0.000308,-2.347703,-19.557949,42.107647,1016.130127
3.577816,-0.007320,0.047336,1.016992,-0.000831,-0.001339,-0.002404,-2.358665,-19.573732,42.449554,1016.130615
3.587789,-0.007076,0.046604,1.016504,0.000684,0.001986,0.001540,-2.367435,-19.586359,42.723080,1016.130615
3.602717,-0.007808,0.047336,1.017480,0.001574,-0.001951,-0.000888,-2.374452,-19.596460,42.941898,1016.130615
3.611511,-0.007076,0.046848,1.016504,0.000947,-0.000417,0.000328,-2.380064,-19.604540,43.116955,1016.130615
3.620331,-0.006832,0.046116,1.018212,-0.001171,-0.001611,0.002124,-2.384555,-19.611004,43.578403,1016.135254
3.630298,-0.008052,0.047092,1.018456,-0.000251,0.001720,-0.073287,-2.485283,-19.649776,43.947559,1016.135254
3.645240,-0.006100,0.047092,1.016748,-0.000246,0.000189,0.000918,-2.565866,-19.680794,44.242886,1016.135254
3.654056,-0.006100,0.047092,1.018700,0.002761,-0.000114,0.001503,-2.630332,-19.705608,44.479145,1016.135254
3.662859,-0.005368,0.046848,1.016260,0.001213,0.000188,0.000877,-2.681904,-19.725460,44.668156,1016.134033
3.672813,-0.006588,0.047336,1.016504,-0.001210,-0.000116,0.001162,-2.723163,-19.730141,44.501656,1016.134033
3.687744,-0.006100,0.046848,1.017480,-0.001490,0.000187,0.000242,-2.950440,-19.733885,44.368454,1016.134033
3.696577,-0.006100,0.045628,1.016016,-0.001765,-0.001018,-0.000062,-3.132263,-19.736881,44.261894,1016.134033
3.705419,-0.005612,0.046604,1.013820,-0.000835,0.000201,0.001140,-3.277720,-19.739277,44.176643,1016.136230
3.715392,-0.007564,0.046848,1.019188,-0.000220,-0.000103,0.000220,-3.394087,-19.741194,44.108444,1016.136230
3.730319,-0.005856,0.046116,1.015772,0.000384,0.000800,0.002018,-3.195773,-19.725927,44.197964,1016.136230
3.739096,-0.005368,0.046604,1.015772,-0.000823,-0.001016,0.001684,-3.037121,-19.713715,44.269577,1016.139893
3.749063,-0.006100,0.046848,1.014796,-0.000509,-0.000698,0.001055,-2.910200,-19.703943,44.326870,1016.139893
3.767041,-0.007564,0.045872,1.016748,-0.001702,-0.001888,0.002539,-2.808664,-19.696127,44.409645,1016.139893
3.781967,-0.006832,0.046604,1.016992,-0.000772,-0.000355,0.002496,-2.837521,-19.673075,44.475864,1016.137207
3.791918,-0.006588,0.046604,1.016504,-0.001660,0.000252,0.001253,-2.860608,-19.654633,44.528843,1016.137207
3.809911,-0.005368,0.046604,1.018700,0.000770,0.000248,-0.001471,-2.879076,-19.639879,44.571224,1016.137207
3.824834,-0.007076,0.046360,1.016504,0.000156,0.000544,-0.001146,-2.854997,-19.678476,44.575573,1016.129883
3.834781,-0.007320,0.046604,1.014552,0.000154,0.001736,-0.000226,-2.835734,-19.709354,44.579052,1016.129883
3.849715,-0.006832,0.046360,1.015772,0.001352,0.000205,-0.000522,-2.820323,-19.734056,44.581837,1016.129883
3.858519,-0.007076,0.046848,1.016992,0.000129,-0.000699,-0.000814,-2.807994,-19.753819,44.584064,1016.129883
3.867327,-0.005368,0.047092,1.016260,0.000126,0.001415,-0.000200,-2.798131,-19.764027,44.578457,1016.132324
3.877353,-0.004636,0.046360,1.019432,-0.000176,0.001691,0.000404,-2.809668,-19.772194,44.573971,1016.132324
3.892299,-0.006588,0.046360,1.016504,0.000127,-0.000139,-0.000804,-2.818897,-19.778728,44.570385,1016.132324
3.901123,-0.006588,0.046848,1.016504,0.000726,0.000164,0.000411,-2.826281,-19.783955,44.567516,1016.132324
3.911086,-0.006344,0.046604,1.018212,0.000413,-0.000139,0.001305,-2.832188,-19.788136,44.565220,1016.132324
3.929072,-0.007564,0.047824,1.018700,0.000106,-0.001939,-0.001119,-2.726826,-19.741081,44.700069,1016.132324
3.944116,-0.007076,0.046604,1.016504,-0.001397,0.000797,0.000401,-2.642536,-19.703438,44.807949,1016.133057
3.954139,-0.006344,0.047336,1.016504,-0.001674,0.000783,0.002196,-2.575105,-19.673323,44.894253,1016.133057
3.969179,-0.007076,0.047092,1.016748,0.001057,-0.000732,-0.000844,-2.566490,-19.643631,44.586483,1016.133057
3.978098,-0.005856,0.047092,1.017724,0.001940,-0.000419,0.000672,-2.559598,-19.619877,44.340267,1016.133057
3.987061,-0.006344,0.047092,1.017480,-0.001096,-0.001613,-0.000541,-2.554084,-19.600874,44.143291,1016.140137
4.003188,-0.005856,0.048068,1.016504,0.001926,-0.000985,0.000369,-2.549674,-19.585672,43.985714,1016.140137
4.012183,-0.007320,0.046604,1.016992,0.002794,-0.000368,0.001264,-2.546145,-19.573511,44.018505,1016.140137
4.021134,-0.007076,0.045872,1.016260,0.001546,-0.000662,0.001243,-2.621031,-19.759781,44.044739,1016.140137
4.039268,-0.006588,0.046848,1.017480,0.000019,0.000250,0.001823,-2.680939,-19.908798,44.065723,1016.136475
4.055482,-0.006588,0.045872,1.016748,0.000619,0.000245,0.001492,-2.728866,-20.028011,44.082512,1016.136475
4.073583,-0.006344,0.046360,1.016748,-0.001193,-0.000359,0.000265,-2.741305,-19.983381,44.177216,1016.138916
4.089700,-0.005856,0.046848,1.017480,-0.000573,0.001148,-0.000340,-2.751255,-19.947678,44.252979,1016.138916
4.107696,-0.006100,0.045628,1.015528,0.002140,0.001429,-0.000935,-2.759216,-19.919115,44.313591,1016.142822
4.123776,-0.006100,0.046116,1.017236,-0.002701,-0.001297,-0.001820,-2.849769,-20.019464,44.229084,1016.142822
4.141759,-0.004880,0.047580,1.016504,-0.000253,-0.000375,0.002415,-2.922211,-20.099745,44.161480,1016.142822
4.156678,-0.006344,0.046604,1.017236,0.001252,-0.001269,0.001474,-2.980165,-20.163969,44.107395,1016.142578
4.166612,-0.006344,0.046116,1.017236,-0.001171,0.000254,0.000248,-2.922916,-20.108948,44.149097,1016.142578
4.181545,-0.006588,0.046360,1.016748,0.001551,-0.000351,0.000544,-2.877117,-20.064930,44.182461,1016.142578
4.190353,-0.006588,0.046604,1.016748,-0.000577,0.000555,0.002336,-2.840478,-20.029716,44.209148,1016.145752
4.200309,-0.008296,0.048312,1.018456,0.000033,-0.000355,0.000796,-2.811167,-20.001545,44.230499,1016.145752
4.218300,-0.007320,0.046360,1.016748,0.000633,0.001153,0.001383,-2.820097,-19.839008,44.280830,1016.145752
4.233238,-0.006832,0.046848,1.016260,0.000923,0.000533,0.000459,-2.827240,-19.708979,44.321095,1016.150635
4.243199,-0.005124,0.046604,1.015040,0.000007,-0.000377,0.001652,-2.832955,-19.604956,44.353306,1016.150635
4.258145,-0.007564,0.046848,1.017236,0.000607,0.000830,0.000423,-2.837527,-19.521736,44.157417,1016.150635
4.266950,-0.007320,0.047092,1.018456,0.000897,0.000516,0.000716,-2.841185,-19.600761,44.000706,1016.150635
4.275752,-0.005856,0.046360,1.015528,0.000882,0.001108,0.000404,-2.844111,-19.663982,43.875340,1016.150879
4.285704,-0.007076,0.046604,1.018700,0.000867,0.000189,-0.000203,-2.846452,-19.714558,43.775043,1016.150879
4.303706,-0.006588,0.046116,1.017480,0.001153,0.001687,0.001001,-2.848324,-19.755018,43.694809,1016.150879
4.318639,-0.006588,0.047092,1.018456,0.001134,0.000457,0.000984,-2.849822,-19.792988,43.896606,1016.148193
4.328587,-0.007320,0.047580,1.016260,-0.000987,-0.000151,0.001268,-2.851021,-19.823362,44.058044,1016.148193
4.343518,-0.007808,0.046848,1.018212,0.002633,0.000452,0.002148,-2.851979,-19.847662,44.187195,1016.148193
4.352323,-0.006100,0.047092,1.017236,0.000486,0.001646,0.000610,-2.852746,-19.867102,44.290516,1016.151855
4.362278,-0.007564,0.047824,1.018456,-0.002224,-0.000184,0.000300,-2.820982,-19.832254,44.018524,1016.151855
4.380265,-0.006588,0.047092,1.019188,0.001417,0.000120,0.001496,-2.795570,-19.804377,43.800930,1016.151855
4.395190,-0.006344,0.047824,1.015772,-0.001310,-0.000483,-0.000631,-2.775240,-19.782074,43.626858,1016.154541
4.405139,-0.006588,0.046848,1.016992,0.000814,-0.000775,0.000881,-2.758977,-19.764233,43.583649,1016.154541
4.420068,-0.005856,0.046360,1.016992,-0.002203,-0.000161,0.000866,-2.700636,-19.755558,43.549080,1016.154541
4.428878,-0.007320,0.047092,1.017724,-0.000364,0.001042,0.003854,-2.653963,-19.748619,43.521427,1016.154541
4.437696,-0.007076,0.048312,1.018212,0.000844,0.002526,0.001087,-2.616625,-19.743069,43.499306,1016.157959
4.447660,-0.007564,0.045872,1.019188,0.000229,0.003085,-0.001934,-2.586755,-19.738628,43.481606,1016.157959
4.462639,-0.006588,0.046116,1.018700,0.000225,0.000330,0.000801,-2.614664,-19.707075,43.552414,1016.157959
4.471451,-0.007076,0.046116,1.019188,-0.001581,0.000324,-0.000114,-2.636992,-19.681833,43.609062,1016.155762
4.481454,-0.006344,0.046604,1.017724,-0.000053,0.000319,0.000189,-2.654853,-19.661638,43.654381,1016.155762
4.499465,-0.005368,0.046604,1.017236,-0.001553,0.000314,0.000486,-2.669143,-19.645483,43.690636,1016.155762
4.514396,-0.007076,0.047092,1.018212,0.002077,-0.000893,0.000177,-2.596390,-19.688559,43.645752,1016.157227
4.524371,-0.006344,0.047580,1.018212,0.000840,0.003326,0.001075,-2.538188,-19.723019,43.609848,1016.157227
4.539444,-0.006588,0.047092,1.017480,-0.000675,-0.000633,0.001057,-2.491626,-19.750587,43.581123,1016.157227
4.548352,-0.007320,0.047336,1.019676,-0.001264,0.001179,0.001039,-2.454376,-19.772642,43.558144,1016.157227
4.557160,-0.007076,0.046848,1.017480,-0.002144,0.001460,0.001623,-2.450480,-19.784687,43.639507,1016.155273
4.567140,-0.006832,0.045872,1.018700,-0.001207,0.001135,-0.000807,-2.447363,-19.794323,43.704597,1016.155273
4.582064,-0.006832,0.046116,1.017236,-0.000586,-0.001287,0.000408,-2.444869,-19.802031,43.756668,1016.155273
4.590883,-0.007320,0.048068,1.019188,0.001225,0.000537,0.001001,-2.442874,-19.808197,43.798325,1016.155273
4.599685,-0.005856,0.046116,1.017480,0.001205,0.001429,0.001585,-2.441278,-19.813129,43.931396,1016.156494
4.609654,-0.006344,0.046604,1.017724,-0.000317,-0.000698,0.002459,-2.427050,-19.940277,44.037853,1016.156494
4.624577,-0.007076,0.046360,1.017236,-0.001813,-0.001286,0.000016,-2.415667,-20.041994,44.123016,1016.156494
4.633366,-0.006588,0.047092,1.018212,-0.000281,-0.000064,0.000015,-2.406561,-20.123367,44.191147,1016.156494
4.642181,-0.005856,0.046116,1.018456,-0.000276,0.000238,0.001216,-2.399276,-20.188467,44.245651,1016.150146
4.652149,-0.008784,0.046848,1.018700,-0.001473,-0.001268,0.000295,-2.393447,-20.274147,44.100849,1016.150146
4.667089,-0.006832,0.046116,1.017480,0.000654,-0.000646,-0.000311,-2.324028,-20.342690,43.985008,1016.150146
4.675901,-0.007564,0.046360,1.019188,0.001243,-0.000034,-0.000305,-2.268492,-20.397524,43.892334,1016.145020
4.685849,-0.006588,0.046116,1.018212,0.000922,-0.000034,0.000300,-2.224064,-20.441391,43.818195,1016.145020
4.703857,-0.005368,0.046116,1.016748,0.000306,-0.001234,0.000295,-2.201473,-20.403687,43.696083,1016.145020
4.718784,-0.005612,0.046360,1.017236,0.000301,-0.001214,0.001191,-2.183400,-20.373522,43.598392,1016.147217
4.728741,-0.006100,0.046360,1.017236,-0.000305,-0.000292,0.000871,-2.168941,-20.349390,43.520241,1016.147217
4.743683,-0.006344,0.046116,1.017480,-0.000900,-0.000287,-0.000645,-2.157375,-20.330086,43.457718,1016.147217
4.752496,-0.006100,0.046848,1.018456,-0.002086,0.001819,-0.000334,-2.264684,-20.185841,43.307953,1016.147217
4.761317,-0.006588,0.045628,1.017236,0.001252,0.002389,-0.000328,-2.350532,-20.070444,43.188141,1016.145020
4.771282,-0.005124,0.046604,1.016016,0.002733,-0.000353,0.000878,-2.419210,-19.978128,43.092293,1016.145020
4.786208,-0.007320,0.046604,1.016748,-0.000316,0.000253,-0.000638,-2.474152,-19.904276,43.015614,1016.145020
4.795018,-0.005368,0.045140,1.016016,-0.000912,0.000549,0.001175,-2.518106,-19.845194,42.954269,1016.145020
4.803835,-0.005612,0.045628,1.016504,-0.001497,0.000540,0.000855,-2.546794,-19.870728,43.093601,1016.141357
4.813784,-0.005856,0.045628,1.018456,-0.000571,0.001131,0.002041,-2.569744,-19.891155,43.205067,1016.141357
4.828721,-0.005856,0.047092,1.017724,0.000340,0.000212,0.000205,-2.588104,-19.907497,43.294239,1016.141357
4.837529,-0.007320,0.046116,1.016992,0.000634,0.000508,0.001403,-2.602792,-19.920570,43.365578,1016.142578
4.847483,-0.006588,0.045872,1.016992,0.000023,-0.000401,0.000779,-2.614542,-19.959028,43.426346,1016.142578
4.865475,-0.006832,0.046360,1.019676,-0.002680,-0.000094,0.000766,-2.643370,-19.989796,43.474960,1016.142578
4.880477,-0.007320,0.046360,1.017480,0.000068,0.002010,0.000453,-2.666432,-20.014408,43.513851,1016.141113
4.890442,-0.006588,0.046116,1.016992,-0.001735,-0.000727,-0.000456,-2.684881,-20.034100,43.544964,1016.141113
4.905389,-0.007076,0.045872,1.019188,-0.001105,0.001387,0.000753,-2.608981,-19.932253,43.791508,1016.141113
4.914225,-0.005612,0.047336,1.016016,-0.001087,0.000163,-0.000161,-2.548260,-19.850775,43.988743,1016.141113
4.923045,-0.007320,0.047336,1.018456,-0.000168,0.000761,-0.000458,-2.499684,-19.785593,44.146530,1016.138916
4.933009,-0.006832,0.047336,1.019188,0.001937,-0.001054,-0.001051,-2.460823,-19.733446,44.272762,1016.138916
4.947966,-0.006588,0.045872,1.017968,-0.000197,-0.000736,0.000168,-2.429734,-19.826130,44.366360,1016.138916
4.956804,-0.007564,0.045628,1.017968,-0.001996,-0.001925,-0.000436,-2.521426,-19.900276,44.441238,1016.138916
4.965652,-0.007320,0.047336,1.018456,-0.001362,-0.000090,-0.002230,-2.594780,-19.959593,44.501141,1016.141602
4.975608,-0.007076,0.045872,1.019188,-0.000138,-0.002491,0.000810,-2.653463,-20.007046,44.549061,1016.141602
4.990547,-0.006588,0.047336,1.019432,0.000165,-0.002149,0.001097,-2.700410,-20.045010,44.587399,1016.141602
4.999355,-0.005368,0.046848,1.017236,-0.001940,0.003292,-0.000723,-2.835102,-20.019381,44.333611,1016.141602
5.008176,-0.006344,0.047336,1.016260,-0.001607,0.002937,-0.001312,-2.942856,-19.998877,44.130581,1016.135254
5.018131,-0.005856,0.046360,1.016748,0.000822,0.000485,0.000512,-3.029060,-19.982473,43.968155,1016.135254
5.033040,-0.006588,0.046116,1.019432,-0.000092,0.000176,0.000203,-3.098022,-19.969351,43.838215,1016.135254
5.041995,-0.006344,0.046604,1.017724,0.001711,-0.001028,-0.000701,-3.153192,-19.958853,43.789677,1016.133301
5.052170,-0.006832,0.047092,1.017724,-0.000120,-0.000110,-0.001290,-3.184377,-19.888855,43.750847,1016.133301
5.067120,-0.006832,0.046604,1.017236,-0.001319,-0.000108,0.000834,-3.209325,-19.832857,43.719784,1016.133301
5.075921,-0.005856,0.046848,1.016748,0.000805,-0.000106,0.002021,-3.229283,-19.788057,43.694931,1016.133301
5.084732,-0.007320,0.046604,1.017724,0.001092,-0.000404,0.000185,-3.245250,-19.752218,43.675049,1016.139160
5.094720,-0.007564,0.046604,1.017480,0.000173,0.000203,-0.000719,-3.258023,-19.712347,43.529846,1016.139160
5.109662,-0.006588,0.047092,1.017968,0.001672,-0.001602,0.001395,-3.119300,-19.680450,43.413681,1016.139160
5.118477,-0.007076,0.045872,1.019188,-0.001360,0.000827,0.001072,-3.008322,-19.654932,43.320751,1016.139160
5.127433,-0.005856,0.046360,1.018456,-0.000736,0.001114,0.002555,-2.919539,-19.634518,43.246407,1016.140381
5.137673,-0.005856,0.045872,1.019432,-0.000423,-0.001007,0.001611,-2.848513,-19.618187,44.132664,1016.140381
5.152911,-0.006588,0.046116,1.017968,-0.000116,-0.000390,0.001284,-2.960061,-19.633121,44.771477,1016.140381
5.161978,-0.006832,0.047092,1.015284,-0.001616,0.000818,0.001863,-3.049299,-19.645069,45.282528,1016.140381
5.178117,-0.007320,0.047092,1.017968,-0.000988,0.000504,-0.000270,-3.120690,-19.654629,45.691368,1016.136475
5.188250,-0.007808,0.046360,1.018700,0.001431,0.000495,-0.001167,-3.177803,-19.662275,45.360863,1016.136475
5.206205,-0.007320,0.045872,1.018700,-0.000094,-0.001615,0.002757,-3.055124,-19.729992,45.096458,1016.133057
5.222248,-0.008052,0.046116,1.016992,-0.000393,0.001115,0.002110,-2.956981,-19.784166,44.884933,1016.133057
5.240251,-0.006100,0.047336,1.017236,-0.000386,0.000195,0.000573,-2.878466,-19.760305,44.881958,1016.133057
5.255186,-0.006100,0.046604,1.017968,-0.000080,-0.001610,-0.000638,-2.737946,-19.741217,44.879578,1016.133301
5.265145,-0.005856,0.045628,1.016016,0.001423,-0.000982,0.002075,-2.625530,-19.725946,44.877670,1016.133301
5.280143,-0.007320,0.046848,1.017724,0.001700,-0.000065,0.001740,-2.535597,-19.713730,44.876144,1016.133301
5.288954,-0.006832,0.047092,1.017480,0.001070,0.000537,0.000210,-2.463650,-19.496756,44.490723,1016.129395
5.298919,-0.007564,0.047092,1.019432,-0.000149,0.002029,-0.000395,-2.496753,-19.323177,44.182384,1016.129395
5.313846,-0.008052,0.046116,1.018456,-0.000747,-0.000707,0.000213,-2.523236,-19.184315,43.935715,1016.129395
5.322672,-0.008296,0.047336,1.020408,-0.000734,0.000506,-0.000392,-2.544421,-19.073225,43.738377,1016.129395
5.331467,-0.005124,0.047336,1.017724,-0.000722,-0.000103,-0.000385,-2.561370,-18.984352,43.580505,1016.134521
5.341437,-0.007320,0.046848,1.019432,-0.000109,-0.001003,0.000823,-2.523123,-19.002853,43.893829,1016.134521
5.359464,-0.007076,0.046604,1.017968,0.000193,-0.000685,0.000809,-2.492526,-19.017654,44.144485,1016.134521
5.374387,-0.006832,0.047580,1.017968,0.000790,0.000828,-0.001007,-2.468048,-19.029495,44.345013,1016.138428
5.384346,-0.006832,0.046848,1.016260,0.000477,-0.000388,0.000812,-2.448465,-19.038969,44.239445,1016.138428
5.399272,-0.006100,0.046360,1.017724,-0.002534,0.000520,0.002300,-2.368042,-19.024147,44.154991,1016.138428
5.408077,-0.006832,0.046604,1.017968,0.000511,-0.000089,-0.000742,-2.303704,-19.012291,44.087429,1016.136475
5.418030,-0.006344,0.047092,1.019920,-0.000098,0.000813,0.000772,-2.252233,-19.002806,44.033379,1016.136475
5.436025,-0.005856,0.046848,1.016748,-0.001297,0.000499,0.000459,-2.211057,-19.068016,44.259823,1016.136475
5.450959,-0.005368,0.046360,1.017724,-0.002177,-0.000711,-0.000450,-2.268776,-19.120186,44.440975,1016.133789
5.460917,-0.006344,0.046848,1.015772,-0.000939,-0.000699,-0.000742,-2.314951,-19.161921,44.585899,1016.133789
5.475869,-0.005368,0.046848,1.017236,0.000278,0.000815,0.000471,-2.351891,-19.195309,44.701839,1016.133789
5.484644,-0.006100,0.047092,1.016748,0.000874,-0.000100,0.001665,-2.381443,-19.188419,44.768730,1016.133789
5.493470,-0.007076,0.046116,1.017480,0.000559,0.001103,0.000736,-2.288522,-19.182907,44.822243,1016.134521
5.503429,-0.006588,0.046116,1.017724,-0.000651,-0.000417,-0.001379,-2.214185,-19.178497,44.865051,1016.134521
5.518359,-0.004880,0.047092,1.016992,-0.000040,-0.000710,0.001047,-2.154715,-19.174971,44.899300,1016.134521
5.527289,-0.007564,0.047092,1.016992,-0.001841,-0.001599,0.001630,-2.107139,-19.172150,44.926697,1016.134521
5.536111,-0.007808,0.047824,1.017724,-0.001510,0.000229,0.000702,-2.069079,-19.309893,44.738041,1016.136475
5.547256,-0.006588,0.046604,1.016016,-0.001484,-0.000075,-0.000812,-1.999776,-19.420086,44.587116,1016.136475
5.562320,-0.006588,0.046604,1.018212,0.000943,-0.001575,0.000103,-1.944333,-19.508242,44.466377,1016.136475
5.580308,-0.008052,0.046848,1.015528,0.000026,0.001154,0.000101,-1.899979,-19.578766,44.547112,1016.139648
5.596374,-0.006344,0.045872,1.018212,0.000026,-0.000967,-0.000501,-1.968108,-19.539986,44.611698,1016.139648
5.614380,-0.006100,0.046604,1.018700,0.000926,-0.000050,0.001309,-2.022611,-19.508961,44.663368,1016.139893
5.630467,-0.005856,0.046604,1.016992,0.000010,0.000551,-0.002016,-2.066213,-19.484140,44.412857,1016.139893
5.648455,-0.006344,0.046360,1.019432,0.001211,-0.001260,0.001922,-2.139949,-19.542685,44.212448,1016.139893
5.663390,-0.007808,0.046848,1.017236,0.001791,-0.000338,0.000988,-2.198938,-19.589520,44.052120,1016.137207
5.673345,-0.007320,0.046604,1.017968,0.003262,-0.000933,-0.000830,-2.246130,-19.626987,43.923859,1016.137207
5.691351,-0.006588,0.047092,1.015772,-0.001597,0.001786,0.002787,-2.439300,-19.595362,44.301506,1016.137207
5.706308,-0.007320,0.046116,1.017236,-0.002171,-0.000647,0.000338,-2.593836,-19.570063,44.603622,1016.138916
5.716253,-0.006588,0.045872,1.016504,-0.002134,-0.000035,-0.000268,-2.717464,-19.549822,44.845314,1016.138916
5.731195,-0.005856,0.046848,1.017968,0.001805,0.000566,0.000938,-1.987475,-19.791229,44.443890,1016.138916
5.740012,-0.006100,0.047336,1.017480,0.001174,0.001457,0.000922,-2.031629,-19.984356,44.122753,1016.137695
5.749986,-0.007320,0.046604,1.018944,-0.000948,0.002634,0.001207,-2.066952,-20.138857,43.865841,1016.137695
5.767979,-0.006588,0.046360,1.015772,0.002672,0.001989,0.000286,-2.095210,-20.262459,43.660313,1016.137695
5.782921,-0.006100,0.046604,1.017480,-0.000376,-0.000747,0.000881,-2.156671,-20.176540,43.953979,1016.140381
5.792884,-0.007564,0.046116,1.017236,-0.000670,-0.001035,0.000266,-2.205840,-20.107805,44.188911,1016.140381
5.807825,-0.007320,0.046604,1.016992,0.000543,-0.000717,0.000261,-2.245175,-20.052816,44.376858,1016.140381
5.816637,-0.006832,0.046604,1.017236,0.000834,0.000196,0.000557,-2.276644,-20.008825,44.527214,1016.137207
5.826599,-0.006344,0.047336,1.019676,0.000219,-0.000708,-0.000653,-2.301818,-19.973633,44.514507,1016.137207
5.844597,-0.006832,0.045872,1.016748,-0.000085,-0.000396,-0.000342,-2.334909,-19.962278,44.504341,1016.137207
5.859564,-0.007076,0.047580,1.018944,0.000517,0.000211,0.000565,-2.361382,-19.953196,44.496208,1016.135498
5.869627,-0.006344,0.048068,1.017968,0.001109,-0.000393,0.001156,-2.382560,-19.945929,44.489700,1016.135498
5.884591,-0.006344,0.046604,1.017236,-0.001612,0.000214,-0.001566,-2.470736,-19.816916,44.403221,1016.135498
5.893447,-0.005368,0.045872,1.016748,-0.000985,-0.000690,0.001763,-2.541276,-19.713705,44.334038,1016.135498
5.902278,-0.007320,0.048312,1.017968,-0.001268,-0.000378,0.002635,-2.597708,-19.631136,44.278690,1016.132324
5.912246,-0.005612,0.046604,1.017480,0.000255,-0.000672,0.001089,-2.642853,-19.565081,44.234413,1016.132324
5.927166,-0.006832,0.047336,1.017236,-0.000651,-0.000961,0.000470,-2.678970,-19.618637,44.121414,1016.132324
5.935967,-0.005612,0.046360,1.016260,0.000261,-0.001245,0.001363,-2.520068,-19.661482,44.031013,1016.133057
5.954856,-0.005612,0.046360,1.017968,0.000557,-0.001525,0.000139,-2.392946,-19.695759,43.958694,1016.133057
5.977682,-0.006344,0.045628,1.016504,-0.000653,0.000002,0.001037,-2.349530,-19.762379,43.948864,1016.138916
6.000036,-0.005856,0.046360,1.018212,-0.000943,-0.000899,0.000720,-2.314796,-19.815676,43.940998,1016.138916
6.022867,-0.006832,0.046360,1.017724,-0.002428,-0.000884,-0.001395,-3.115903,-19.763113,43.635471,1016.138916
6.048267,-0.005612,0.046116,1.012844,-0.001787,0.001534,0.000130,-2.973225,-19.721064,43.391048,1016.143555
6.073905,-0.006344,0.046604,1.016016,0.001546,-0.000294,-0.000472,-2.833180,-19.771423,43.568630,1016.143555
6.097010,-0.005856,0.047336,1.017724,0.000319,-0.001190,0.001938,-2.721144,-19.811710,43.710697,1016.142090
6.119335,-0.003904,0.046848,1.016504,-0.001488,-0.000569,0.000104,-2.631515,-19.983940,43.765244,1016.142090
6.142180,-0.006100,0.046360,1.017968,-0.000862,0.001542,0.000702,-2.585716,-20.121725,43.808880,1016.139648
6.167550,-0.006832,0.047092,1.016260,-0.001148,0.000315,0.000991,-2.549076,-19.979952,43.186207,1016.139648
6.190512,-0.006344,0.047092,1.016748,0.000373,-0.000891,-0.000828,-2.474433,-19.866533,42.688068,1016.140625
6.213166,-0.008052,0.045872,1.019920,0.000667,-0.001177,-0.001114,-2.414720,-19.775799,42.511215,1016.140869
6.235543,-0.006344,0.047092,1.017968,-0.001747,-0.001457,0.001307,-2.412279,-19.860012,42.369732,1016.140869
6.261510,-0.006344,0.047336,1.016016,-0.002018,-0.000532,-0.000216,-2.410326,-19.927382,42.286102,1016.142578
6.286859,-0.005856,0.046116,1.016504,0.001019,-0.000222,0.001889,-2.337531,-19.919678,42.219196,1016.142578
6.309715,-0.005856,0.046360,1.017480,0.002203,0.000382,-0.000545,-2.279295,-19.913515,42.180450,1016.150146
6.332033,-0.006100,0.046604,1.017480,0.000064,-0.000225,0.001266,-2.226230,-19.701385,42.149452,1016.150146
6.353194,-0.008296,0.047580,1.016748,0.000363,0.000079,0.001846,-2.183779,-19.531681,42.124653,1016.151123
6.374353,-0.006832,0.046848,1.018212,0.000057,-0.001124,0.001214,-2.143342,-19.647917,42.296917,1016.152344
6.396655,-0.006344,0.046604,1.017480,0.000056,0.000697,-0.000909,-2.110992,-19.740906,42.434727,1016.152344
6.422596,-0.005368,0.046116,1.016504,-0.002047,0.000085,0.000909,-2.098064,-19.608097,42.404594,1016.154053
6.447998,-0.005612,0.047336,1.016260,-0.000211,0.001885,0.000293,-2.087721,-19.501850,42.380486,1016.154053
6.473936,-0.005124,0.046360,1.017236,0.001294,0.001253,0.000588,-2.085923,-19.573652,42.638271,1016.152832
6.499346,-0.005856,0.047092,1.016992,-0.000830,0.000331,-0.000923,-2.084484,-19.631094,42.844498,1016.153564
6.524767,-0.007564,0.047336,1.016748,0.000686,-0.001176,-0.000007,-1.960294,-19.677048,43.064892,1016.153564
6.550713,-0.005856,0.047336,1.017724,0.000374,0.000345,0.000594,-1.860943,-19.713810,43.241207,1016.156738
6.576367,-0.007076,0.045140,1.018456,-0.001134,-0.000862,0.000584,-2.014587,-19.698420,43.286209,1016.153076
6.599212,-0.008540,0.046848,1.017968,0.000387,0.000054,0.000574,-2.137503,-19.686108,43.322212,1016.153076
6.619001,-0.007808,0.045872,1.016504,-0.002022,-0.000548,0.000564,-2.112797,-19.659458,43.605919,1016.150146
6.644439,-0.007564,0.047336,1.017480,0.000714,-0.002040,0.001456,-2.093032,-19.638140,43.832886,1016.150146
6.667286,-0.007564,0.047824,1.016748,0.000402,0.001297,-0.000070,-2.129025,-19.643484,43.829742,1016.146973
6.689602,-0.006832,0.047824,1.017236,0.000696,0.001276,0.000231,-2.157820,-19.647760,43.827229,1016.146973
6.712581,-0.006344,0.048068,1.016748,-0.000818,-0.000247,0.000528,-2.245614,-19.516781,43.729168,1016.147949
6.737952,-0.006832,0.046360,1.017724,-0.000804,0.000958,0.001119,-2.315848,-19.411997,43.650719,1016.147949
6.760828,-0.008540,0.046360,1.017968,0.000711,0.000041,0.000200,-2.352609,-19.328171,43.702480,1016.153076
6.783117,-0.004880,0.047092,1.018700,-0.001103,0.002142,-0.000404,-2.382017,-19.261108,43.743893,1016.150391
6.805477,-0.005856,0.047092,1.018456,0.000417,0.000305,-0.074271,-2.405544,-19.369860,43.876766,1016.150391
6.831396,-0.007076,0.047336,1.017724,0.001011,0.000900,0.002052,-2.307803,-19.456860,43.983067,1016.151611
6.856791,-0.007320,0.046848,1.017968,0.000393,-0.000617,0.002018,-2.229609,-19.352859,43.868614,1016.151611
6.882817,-0.006588,0.047824,1.016260,0.000387,0.000295,0.000182,-2.225336,-19.269661,43.777054,1016.148193
6.908252,-0.006588,0.047824,1.015040,-0.001421,-0.000611,0.000779,-2.150685,-19.175100,43.773994,1016.152832
6.933638,-0.005612,0.046360,1.016748,-0.000196,-0.000901,0.001667,-2.090963,-19.099453,43.771549,1016.152832
6.959635,-0.006832,0.046360,1.017724,0.002810,0.000916,-0.000163,-2.153274,-19.240536,43.618126,1016.156250
6.985009,-0.006100,0.045872,1.018212,-0.001141,0.001201,-0.000160,-2.203122,-19.353401,43.495388,1016.153076
7.010407,-0.006588,0.047336,1.018212,-0.001723,-0.000321,0.001344,-2.288331,-19.376493,43.134907,1016.153076
7.036325,-0.006588,0.046116,1.016260,-0.000793,-0.001217,0.000421,-2.356498,-19.394968,42.846519,1016.152832
7.061749,-0.007564,0.046116,1.019676,-0.000479,0.002408,0.000414,-2.430459,-19.476948,42.656448,1016.152832
7.084611,-0.005612,0.047092,1.016992,-0.000471,-0.002137,0.000106,-2.489627,-19.542530,42.504391,1016.152832
7.107167,-0.006100,0.046360,1.016748,-0.000163,0.000001,0.001006,-2.433350,-19.690197,42.571152,1016.152100
7.129567,-0.007564,0.047092,1.016260,0.001642,-0.001801,-0.001113,-2.388329,-19.808331,42.624561,1016.152100
7.155516,-0.007076,0.047092,1.016504,-0.001089,0.000331,0.001007,-2.540108,-19.774036,42.611874,1016.152832
7.180897,-0.007076,0.046604,1.016504,0.001332,-0.001476,0.000090,-2.661531,-19.746601,42.601723,1016.152832
7.203702,-0.007076,0.047336,1.016992,0.001910,-0.000250,0.000689,-2.635631,-19.786253,42.704433,1016.158203
7.230774,-0.007076,0.045872,1.015284,0.000377,-0.000847,0.000677,-2.614911,-19.817974,42.786602,1016.162354
7.256176,-0.005612,0.047336,1.016260,-0.002032,-0.000532,-0.000235,-2.604810,-19.865751,42.804310,1016.162354
7.282467,-0.006588,0.045140,1.017236,-0.000797,0.001279,0.001270,-2.596730,-19.903973,42.818478,1016.157959
7.307913,-0.007320,0.047092,1.016748,0.000718,-0.001446,0.000949,-2.590266,-19.805750,43.151211,1016.157959
7.333805,-0.007076,0.046116,1.017480,-0.000795,-0.000220,0.000332,-2.585094,-19.727173,43.417400,1016.158691
7.359173,-0.006832,0.047336,1.016992,0.001620,-0.001117,0.002429,-2.490297,-19.737110,43.512135,1016.153809
7.384581,-0.005612,0.046604,1.017236,-0.002311,0.001304,0.002087,-2.414459,-19.745060,43.587921,1016.153809
7.410457,-0.006832,0.046604,1.016992,-0.000170,0.000681,-0.002152,-2.392643,-19.813021,43.356701,1016.154053
7.435858,-0.005612,0.047336,1.016016,-0.000768,-0.002333,0.001188,-2.375190,-19.867390,43.434021,1016.152344
7.461266,-0.006588,0.046604,1.018700,0.001047,0.000709,0.002669,-2.264092,-19.737284,43.495876,1016.152344
7.484556,-0.006832,0.046848,1.016992,-0.000172,0.001298,-0.000679,-2.175213,-19.633200,43.611858,1016.151855
7.506905,-0.005856,0.045872,1.016992,-0.002271,0.000375,0.001134,-2.194771,-19.852333,43.704643,1016.151855
7.529746,-0.006100,0.045628,1.017968,-0.001032,0.000069,0.000214,-2.210417,-20.027639,43.778870,1016.155029
7.555151,-0.006344,0.046848,1.016260,0.000788,0.001569,-0.001291,-2.073992,-20.027884,43.897358,1016.152832
7.580561,-0.006588,0.047336,1.016260,0.000774,0.000642,0.001133,-1.964852,-20.028080,43.992149,1016.152832
7.603453,-0.007564,0.047580,1.015772,0.000761,-0.001171,0.001114,-2.052385,-19.854637,43.886963,1016.148438
7.631808,-0.006588,0.045628,1.018700,-0.000152,-0.001151,-0.000106,-2.122411,-19.715881,44.039249,1016.148438
7.657816,-0.006832,0.047824,1.016260,0.001051,-0.000832,-0.000104,-2.003587,-19.621677,44.161076,1016.149170
7.680939,-0.006100,0.046848,1.017480,0.000133,-0.001118,0.000799,-1.908528,-19.546314,44.258537,1016.150146
7.701024,-0.007320,0.045628,1.016016,-0.000470,-0.001099,0.000485,-1.832481,-19.446823,44.000328,1016.150146
7.724932,-0.006100,0.046604,1.015528,0.000739,-0.000180,-0.000724,-1.771644,-19.367231,43.793762,1016.155518
7.744977,-0.006344,0.047580,1.016016,-0.000475,-0.000177,0.001090,-1.884866,-19.544357,43.935135,1016.155518
7.767075,-0.004880,0.045140,1.016748,0.000434,-0.000774,-0.001331,-1.975444,-19.686058,44.048233,1016.155762
7.792459,-0.006588,0.046604,1.016748,0.001628,-0.000161,-0.000408,-2.190373,-19.665018,44.068520,1016.155762
7.818361,-0.007076,0.046604,1.015772,0.001301,0.000443,0.001401,-2.362316,-19.648188,44.084747,1016.157715
7.843701,-0.006588,0.046848,1.017968,0.000378,0.000135,0.001978,-2.350928,-19.869923,44.012760,1016.153809
7.869217,-0.008540,0.046848,1.018944,0.002173,0.000733,0.001344,-2.341818,-20.047310,43.955173,1016.153809
7.895306,-0.006832,0.045872,1.016260,-0.001167,-0.000781,0.001622,-2.522326,-20.127621,44.042095,1016.160156
7.920725,-0.007320,0.047580,1.016748,0.000054,0.000133,-0.001709,-2.666733,-20.191870,44.111633,1016.159180
7.946119,-0.006588,0.048312,1.016504,-0.000547,0.000131,-0.001380,-2.575035,-20.108868,43.723953,1016.159180
7.972070,-0.006100,0.046116,1.017724,0.001264,-0.001072,0.001346,-2.501677,-20.042467,43.413807,1016.157471
7.997509,-0.006832,0.046604,1.017236,-0.000259,-0.000153,0.001023,-2.378233,-19.905346,43.487091,1016.157471
8.020931,-0.007076,0.046604,1.018456,-0.000855,-0.000751,0.001006,-2.279478,-19.795649,43.545719,1016.157471
8.043156,-0.006588,0.047092,1.018700,-0.001141,0.001063,0.000088,-2.239328,-19.640692,43.304470,1016.158203
8.065570,-0.007320,0.047092,1.018212,-0.000221,0.001045,0.000687,-2.207209,-19.516726,43.111469,1016.158203
8.091406,-0.007076,0.046848,1.014552,-0.002319,0.001028,-0.001126,-2.207416,-19.507153,43.042038,1016.156982
8.116802,-0.007076,0.047336,1.016504,0.001023,-0.000191,-0.000206,-2.207581,-19.499495,42.986492,1016.156982
8.143061,-0.007320,0.045872,1.015528,0.001006,0.000713,0.000398,-2.291898,-19.442968,43.126770,1016.151855
8.166451,-0.004148,0.046360,1.016260,0.000088,-0.000200,0.002794,-2.359351,-19.397747,43.238991,1016.151855
8.185652,-0.007320,0.047336,1.015040,0.000086,-0.001698,0.000644,-2.257897,-19.462370,43.147747,1016.146973
8.203872,-0.006832,0.046604,1.016992,-0.000816,0.001934,-0.001168,-2.176733,-19.514069,43.074753,1016.146973
8.226151,-0.007808,0.047092,1.013576,0.001300,-0.000200,-0.000848,-2.111802,-19.555428,43.352539,1016.141846
8.244409,-0.006832,0.046604,1.016260,-0.000224,-0.000798,-0.000834,-2.156993,-19.459715,43.574768,1016.141846
8.262383,-0.006344,0.046360,1.017480,0.000081,0.001618,0.000682,-2.193146,-19.383144,43.752548,1016.142334
8.287787,-0.006588,0.046848,1.018700,0.000079,-0.001712,0.001271,-2.202641,-19.445087,43.192863,1016.143311
8.313237,-0.007564,0.045384,1.017236,0.000378,0.000118,0.000048,-2.210237,-19.494642,42.745113,1016.143311
8.336070,-0.006588,0.046116,1.018700,0.001573,-0.000484,0.000648,-2.287547,-19.567886,43.014942,1016.143799
8.358400,-0.006100,0.046848,1.017480,0.001246,0.001326,-0.002066,-2.349395,-19.626482,43.230804,1016.143799
8.381239,-0.004880,0.046116,1.016992,-0.000276,-0.000198,-0.001430,-2.385922,-19.684559,43.484768,1016.139648
8.406655,-0.005612,0.047092,1.017236,0.000930,-0.001997,0.000996,-2.415143,-19.731020,43.687939,1016.139648
8.429713,-0.005856,0.045628,1.016748,0.001815,-0.001062,0.000078,-2.432045,-19.628189,43.902195,1016.141357
8.452075,-0.006344,0.047824,1.016992,-0.000318,0.001959,0.001278,-2.445566,-19.545923,44.073601,1016.137451
8.474464,-0.005368,0.046360,1.016016,-0.001514,-0.001377,0.000957,-2.456383,-19.664911,44.085121,1016.137451
8.500507,-0.006100,0.047824,1.017724,0.000314,0.000447,0.000040,-2.471513,-19.760101,44.094337,1016.135498
8.525922,-0.008052,0.046116,1.016260,-0.000292,-0.000161,0.000339,-2.308771,-19.875454,43.872665,1016.135498
8.551825,-0.006832,0.047092,1.015284,0.001815,0.001043,0.000033,-2.178578,-19.967735,43.695328,1016.130371
8.577234,-0.008052,0.046360,1.016504,-0.001519,0.000425,0.000934,-2.165084,-19.991161,43.649506,1016.135010
8.602639,-0.005856,0.047092,1.016504,-0.001493,-0.001684,0.000317,-2.154289,-20.009901,43.612850,1016.135010
8.625676,-0.005368,0.046848,1.016504,-0.000567,-0.001356,0.000312,-2.216886,-19.935293,43.509640,1016.134277
8.648261,-0.007808,0.047336,1.017724,0.000343,-0.001032,-0.001495,-2.266963,-19.875607,43.427071,1016.134277
8.667993,-0.005856,0.047092,1.018700,0.000037,0.002288,0.003035,-2.307025,-19.951057,43.202164,1016.141357
8.690201,-0.005856,0.046604,1.018700,0.000337,-0.002255,0.000581,-2.423259,-20.011419,43.022236,1016.141357
8.713028,-0.005124,0.047092,1.018944,0.000631,-0.000715,0.000571,-2.516246,-20.059708,43.299442,1016.143066
8.738333,-0.004880,0.046116,1.015772,0.002723,0.000198,-0.000940,-2.422267,-20.014339,43.521206,1016.145752
8.763641,-0.006588,0.047092,1.016992,0.000575,-0.000106,-0.000023,-2.347084,-19.978045,43.742947,1016.145752
8.789453,-0.006832,0.046360,1.018700,0.000866,0.000196,0.002079,-2.202753,-19.859407,43.920341,1016.145508
8.814750,-0.005856,0.045872,1.018212,-0.000951,-0.000408,-0.001559,-2.087288,-19.848499,44.235886,1016.145508
8.840576,-0.006100,0.046116,1.018944,0.000266,0.000200,0.000869,-2.124430,-19.839771,44.488323,1016.141846
8.865843,-0.006344,0.046360,1.018456,-0.000639,-0.001005,0.000254,-1.325252,-19.771189,44.232185,1016.142090
8.891202,-0.007564,0.047580,1.018456,-0.000628,0.001414,-0.000651,-1.501850,-19.716324,44.027275,1016.142090
8.917201,-0.006588,0.046116,1.019676,0.001484,0.000490,0.001762,-1.694934,-19.700432,43.940926,1016.143799
8.942486,-0.005856,0.045384,1.019676,-0.000643,0.001683,0.000832,-1.849402,-19.687717,43.871845,1016.138672
8.968098,-0.007076,0.047580,1.016992,-0.000332,-0.000147,0.000518,-1.921170,-19.744747,43.879383,1016.138672
8.993926,-0.006832,0.047580,1.017480,-0.000626,-0.000746,0.000209,-1.978585,-19.790371,43.885414,1016.139160
9.019222,-0.005124,0.045872,1.019432,0.000285,0.000468,0.001106,-2.011565,-19.826870,43.616863,1016.134766
9.044503,-0.006832,0.046848,1.019432,-0.001221,-0.001341,-0.000114,-2.037949,-19.856068,43.402023,1016.134766
9.070331,-0.008052,0.046604,1.017724,-0.000600,0.001984,0.001089,-2.117338,-19.924227,43.703014,1016.134033
9.095663,-0.007320,0.046360,1.018700,0.000912,0.000750,0.000470,-2.180850,-19.978754,43.943810,1016.134033
9.121562,-0.005856,0.045628,1.018456,0.001497,-0.000464,0.000162,-2.147474,-19.949575,43.678356,1016.132812
9.146976,-0.007076,0.046604,1.017968,-0.000630,-0.001057,-0.001642,-2.120774,-19.926233,43.465992,1016.133545
9.172645,-0.006344,0.045140,1.018212,-0.001821,0.001664,0.001388,-2.170646,-19.840359,43.562088,1016.133545
9.198477,-0.005124,0.046604,1.017236,0.001513,0.001936,-0.001037,-2.210544,-19.771660,43.638966,1016.133545
9.221818,-0.007320,0.045628,1.016504,0.000291,0.000714,-0.000732,-2.229511,-19.873501,43.667221,1016.133545
9.241384,-0.004880,0.046360,1.017968,-0.000625,0.001325,-0.001343,-2.244684,-19.954973,43.689823,1016.140625
9.266726,-0.007320,0.047336,1.016992,0.000902,0.000409,0.000184,-2.127309,-19.919352,43.744850,1016.142822
9.292038,-0.005124,0.046848,1.017724,0.001818,0.000409,0.001101,-2.033408,-19.890854,43.788872,1016.142822
9.315077,-0.006344,0.045872,1.018700,0.000596,0.001019,0.000490,-2.146084,-19.733656,43.698483,1016.144287
9.337305,-0.005612,0.046848,1.017724,0.001818,0.000103,-0.000121,-2.236224,-19.607897,43.626171,1016.144287
9.360091,-0.007076,0.047092,1.016504,0.000291,0.001019,-0.000121,-2.263007,-19.591290,43.597878,1016.142090
9.385344,-0.005612,0.046116,1.018700,-0.000015,0.001325,-0.001037,-2.284432,-19.578005,43.575241,1016.140381
9.410673,-0.006100,0.045628,1.017480,0.000291,0.001935,0.001101,-2.333952,-19.634577,43.461082,1016.140381
9.436558,-0.006832,0.046360,1.018944,-0.000015,-0.000814,-0.002259,-2.373568,-19.679834,43.369755,1016.142822
9.461878,-0.005368,0.046848,1.016260,-0.000015,-0.001730,0.000490,-2.366405,-19.710440,43.215420,1016.142822
9.487681,-0.005856,0.046604,1.016260,-0.000626,0.000408,0.000795,-2.360676,-19.734924,43.091949,1016.149902
9.513075,-0.006344,0.047580,1.018944,0.000596,0.000103,0.000795,-2.349616,-19.748913,43.140945,1016.152832
9.538383,-0.005368,0.046116,1.017968,-0.000320,-0.001730,0.000795,-2.340769,-19.760103,43.180141,1016.152832
9.564230,-0.006344,0.046604,1.017480,0.000291,-0.000508,-0.001037,-2.340166,-19.746655,43.012009,1016.150879
9.589514,-0.006344,0.046604,1.015772,-0.002153,0.001019,-0.001648,-2.339684,-19.735897,42.877502,1016.151855
9.614823,-0.006832,0.045140,1.016748,0.002429,0.000103,-0.000426,-2.190357,-19.766491,43.010025,1016.151855
9.640633,-0.006100,0.047336,1.019676,-0.001847,0.000714,0.000185,-2.070896,-19.790966,42.957188,1016.152344
9.666021,-0.006344,0.047824,1.018700,-0.000320,0.000103,0.000795,-2.143696,-19.967346,42.914917,1016.152344
9.692517,-0.007076,0.046848,1.017724,-0.000931,0.000408,0.000184,-2.201935,-19.895649,42.943905,1016.156006
